trial_num	cat	length	theta	resp	rt	DTcorrect	DTrt	
1	1.0	72.0	1.0	2	0.45002158324	1	0	
2	2.0	76.0	0.6	4	0.63986375612	0	0.358471691053	
3	1.0	67.0	0.7	1	0.700023251385	1	0.748369708321	
4	2.0	48.0	0.2	-1	-1	0	0	
4	2.0	48.0	0.2	-1	-1	0	0	
4	2.0	48.0	0.2	-1	-1	0	0	
4	2.0	48.0	0.2	-1	-1	0	0	
4	2.0	48.0	0.2	-1	-1	0	0	
4	2.0	48.0	0.2	-1	-1	0	0	
4	2.0	48.0	0.2	-1	-1	0	0	
4	2.0	48.0	0.2	-1	-1	0	0	
4	2.0	48.0	0.2	-1	-1	0	0	
4	2.0	48.0	0.2	-1	-1	0	0	
4	2.0	48.0	0.2	-1	-1	0	0	
4	2.0	48.0	0.2	-1	-1	0	0	
4	2.0	48.0	0.2	-1	-1	0	0	
4	2.0	48.0	0.2	-1	-1	0	0	
4	2.0	48.0	0.2	-1	-1	0	0	
4	2.0	48.0	0.2	-1	-1	0	0	
4	2.0	48.0	0.2	-1	-1	0	0	
4	2.0	48.0	0.2	-1	-1	0	0	
4	2.0	48.0	0.2	-1	-1	0	0	
4	2.0	48.0	0.2	-1	-1	0	0	
4	2.0	48.0	0.2	-1	-1	0	0	
4	2.0	48.0	0.2	-1	-1	0	0	
4	2.0	48.0	0.2	-1	-1	0	0	
4	2.0	48.0	0.2	-1	-1	0	0	
4	2.0	48.0	0.2	-1	-1	0	0	
4	2.0	48.0	0.2	-1	-1	0	0	
4	2.0	48.0	0.2	-1	-1	0	0	
4	2.0	48.0	0.2	-1	-1	0	0	
4	2.0	48.0	0.2	-1	-1	0	0	
4	2.0	48.0	0.2	-1	-1	0	0	
4	2.0	48.0	0.2	-1	-1	0	0	
4	2.0	48.0	0.2	-1	-1	0	0	
4	2.0	48.0	0.2	-1	-1	0	0	
4	2.0	48.0	0.2	-1	-1	0	0	
4	2.0	48.0	0.2	-1	-1	0	0	
4	2.0	48.0	0.2	-1	-1	0	0	
4	2.0	48.0	0.2	-1	-1	0	0	
4	2.0	48.0	0.2	-1	-1	0	0	
4	2.0	48.0	0.2	-1	-1	0	0	
4	2.0	48.0	0.2	-1	-1	0	0	
4	2.0	48.0	0.2	-1	-1	0	0	
4	2.0	48.0	0.2	-1	-1	0	0	
4	2.0	48.0	0.2	-1	-1	0	0	
4	2.0	48.0	0.2	-1	-1	0	0	
4	2.0	48.0	0.2	-1	-1	0	0	
4	2.0	48.0	0.2	-1	-1	0	0	
4	2.0	48.0	0.2	-1	-1	0	0	
4	2.0	48.0	0.2	-1	-1	0	0	
4	2.0	48.0	0.2	-1	-1	0	0	
4	2.0	48.0	0.2	-1	-1	0	0	
4	2.0	48.0	0.2	-1	-1	0	0	
4	2.0	48.0	0.2	-1	-1	0	0	
4	2.0	48.0	0.2	-1	-1	0	0	
4	2.0	48.0	0.2	-1	-1	0	0	
4	2.0	48.0	0.2	-1	-1	0	0	
4	2.0	48.0	0.2	-1	-1	0	0	
4	2.0	48.0	0.2	-1	-1	0	0	
4	2.0	48.0	0.2	-1	-1	0	0	
4	2.0	48.0	0.2	-1	-1	0	0	
4	2.0	48.0	0.2	-1	-1	0	0	
4	2.0	48.0	0.2	-1	-1	0	0	
4	2.0	48.0	0.2	-1	-1	0	0	
4	2.0	48.0	0.2	-1	-1	0	0	
4	2.0	48.0	0.2	-1	-1	0	0	
4	2.0	48.0	0.2	-1	-1	0	0	
4	2.0	48.0	0.2	-1	-1	0	0	
4	2.0	48.0	0.2	-1	-1	0	0	
4	2.0	48.0	0.2	-1	-1	0	0	
4	2.0	48.0	0.2	-1	-1	0	0	
4	2.0	48.0	0.2	-1	-1	0	0	
4	2.0	48.0	0.2	-1	-1	0	0	
4	2.0	48.0	0.2	-1	-1	0	0	
4	2.0	48.0	0.2	-1	-1	0	0	
4	2.0	48.0	0.2	-1	-1	0	0	
4	2.0	48.0	0.2	-1	-1	0	0	
4	2.0	48.0	0.2	-1	-1	0	0	
4	2.0	48.0	0.2	-1	-1	0	0	
4	2.0	48.0	0.2	-1	-1	0	0	
4	2.0	48.0	0.2	-1	-1	0	0	
4	2.0	48.0	0.2	-1	-1	0	0	
4	2.0	48.0	0.2	-1	-1	0	0	
4	2.0	48.0	0.2	-1	-1	0	0	
4	2.0	48.0	0.2	-1	-1	0	0	
4	2.0	48.0	0.2	-1	-1	0	0	
4	2.0	48.0	0.2	-1	-1	0	0	
4	2.0	48.0	0.2	-1	-1	0	0	
4	2.0	48.0	0.2	-1	-1	0	0	
4	2.0	48.0	0.2	-1	-1	0	0	
4	2.0	48.0	0.2	-1	-1	0	0	
4	2.0	48.0	0.2	-1	-1	0	0	
4	2.0	48.0	0.2	-1	-1	0	0	
4	2.0	48.0	0.2	-1	-1	0	0	
4	2.0	48.0	0.2	-1	-1	0	0	
4	2.0	48.0	0.2	-1	-1	0	0	
4	2.0	48.0	0.2	-1	-1	0	0	
4	2.0	48.0	0.2	-1	-1	0	0	
4	2.0	48.0	0.2	-1	-1	0	0	
4	2.0	48.0	0.2	-1	-1	0	0	
4	2.0	48.0	0.2	-1	-1	0	0	
4	2.0	48.0	0.2	-1	-1	0	0	
4	2.0	48.0	0.2	-1	-1	0	0	
4	2.0	48.0	0.2	-1	-1	0	0	
4	2.0	48.0	0.2	-1	-1	0	0	
4	2.0	48.0	0.2	-1	-1	0	0	
4	2.0	48.0	0.2	-1	-1	0	0	
4	2.0	48.0	0.2	-1	-1	0	0	
4	2.0	48.0	0.2	-1	-1	0	0	
4	2.0	48.0	0.2	-1	-1	0	0	
4	2.0	48.0	0.2	-1	-1	0	0	
4	2.0	48.0	0.2	-1	-1	0	0	
4	2.0	48.0	0.2	-1	-1	0	0	
4	2.0	48.0	0.2	-1	-1	0	0	
4	2.0	48.0	0.2	-1	-1	0	0	
4	2.0	48.0	0.2	-1	-1	0	0	
4	2.0	48.0	0.2	-1	-1	0	0	
4	2.0	48.0	0.2	-1	-1	0	0	
4	2.0	48.0	0.2	-1	-1	0	0	
4	2.0	48.0	0.2	-1	-1	0	0	
4	2.0	48.0	0.2	-1	-1	0	0	
4	2.0	48.0	0.2	-1	-1	0	0	
4	2.0	48.0	0.2	-1	-1	0	0	
4	2.0	48.0	0.2	-1	-1	0	0	
4	2.0	48.0	0.2	-1	-1	0	0	
4	2.0	48.0	0.2	-1	-1	0	0	
4	2.0	48.0	0.2	-1	-1	0	0	
4	2.0	48.0	0.2	-1	-1	0	0	
4	2.0	48.0	0.2	-1	-1	0	0	
4	2.0	48.0	0.2	-1	-1	0	0	
4	2.0	48.0	0.2	-1	-1	0	0	
4	2.0	48.0	0.2	-1	-1	0	0	
4	2.0	48.0	0.2	-1	-1	0	0	
4	2.0	48.0	0.2	-1	-1	0	0	
4	2.0	48.0	0.2	-1	-1	0	0	
4	2.0	48.0	0.2	-1	-1	0	0	
4	2.0	48.0	0.2	-1	-1	0	0	
4	2.0	48.0	0.2	-1	-1	0	0	
4	2.0	48.0	0.2	-1	-1	0	0	
4	2.0	48.0	0.2	-1	-1	0	0	
4	2.0	48.0	0.2	-1	-1	0	0	
4	2.0	48.0	0.2	-1	-1	0	0	
4	2.0	48.0	0.2	-1	-1	0	0	
4	2.0	48.0	0.2	-1	-1	0	0	
4	2.0	48.0	0.2	-1	-1	0	0	
4	2.0	48.0	0.2	-1	-1	0	0	
4	2.0	48.0	0.2	-1	-1	0	0	
4	2.0	48.0	0.2	-1	-1	0	0	
4	2.0	48.0	0.2	-1	-1	0	0	
4	2.0	48.0	0.2	-1	-1	0	0	
4	2.0	48.0	0.2	-1	-1	0	0	
4	2.0	48.0	0.2	-1	-1	0	0	
4	2.0	48.0	0.2	-1	-1	0	0	
4	2.0	48.0	0.2	-1	-1	0	0	
4	2.0	48.0	0.2	-1	-1	0	0	
4	2.0	48.0	0.2	-1	-1	0	0	
4	2.0	48.0	0.2	-1	-1	0	0	
4	2.0	48.0	0.2	-1	-1	0	0	
4	2.0	48.0	0.2	-1	-1	0	0	
4	2.0	48.0	0.2	-1	-1	0	0	
4	2.0	48.0	0.2	-1	-1	0	0	
4	2.0	48.0	0.2	-1	-1	0	0	
4	2.0	48.0	0.2	-1	-1	0	0	
4	2.0	48.0	0.2	-1	-1	0	0	
4	2.0	48.0	0.2	-1	-1	0	0	
4	2.0	48.0	0.2	-1	-1	0	0	
4	2.0	48.0	0.2	-1	-1	0	0	
4	2.0	48.0	0.2	-1	-1	0	0	
4	2.0	48.0	0.2	-1	-1	0	0	
4	2.0	48.0	0.2	-1	-1	0	0	
4	2.0	48.0	0.2	-1	-1	0	0	
4	2.0	48.0	0.2	-1	-1	0	0	
4	2.0	48.0	0.2	-1	-1	0	0	
4	2.0	48.0	0.2	-1	-1	0	0	
4	2.0	48.0	0.2	-1	-1	0	0	
4	2.0	48.0	0.2	-1	-1	0	0	
4	2.0	48.0	0.2	-1	-1	0	0	
5	2.0	48.0	0.2	0	-1	-1	0	
6	2.0	86.0	0.2	-1	-1	0	0	
6	2.0	86.0	0.2	-1	-1	0	0	
6	2.0	86.0	0.2	-1	-1	0	0	
6	2.0	86.0	0.2	-1	-1	0	0	
6	2.0	86.0	0.2	-1	-1	0	0	
6	2.0	86.0	0.2	-1	-1	0	0	
6	2.0	86.0	0.2	-1	-1	0	0	
6	2.0	86.0	0.2	-1	-1	0	0	
6	2.0	86.0	0.2	-1	-1	0	0	
6	2.0	86.0	0.2	-1	-1	0	0	
6	2.0	86.0	0.2	-1	-1	0	0	
6	2.0	86.0	0.2	-1	-1	0	0	
6	2.0	86.0	0.2	-1	-1	0	0	
6	2.0	86.0	0.2	-1	-1	0	0	
6	2.0	86.0	0.2	-1	-1	0	0	
6	2.0	86.0	0.2	-1	-1	0	0	
6	2.0	86.0	0.2	-1	-1	0	0	
6	2.0	86.0	0.2	-1	-1	0	0	
6	2.0	86.0	0.2	-1	-1	0	0	
6	2.0	86.0	0.2	-1	-1	0	0	
6	2.0	86.0	0.2	-1	-1	0	0	
6	2.0	86.0	0.2	-1	-1	0	0	
6	2.0	86.0	0.2	-1	-1	0	0	
6	2.0	86.0	0.2	-1	-1	0	0	
6	2.0	86.0	0.2	-1	-1	0	0	
6	2.0	86.0	0.2	-1	-1	0	0	
6	2.0	86.0	0.2	-1	-1	0	0	
6	2.0	86.0	0.2	-1	-1	0	0	
6	2.0	86.0	0.2	-1	-1	0	0	
6	2.0	86.0	0.2	-1	-1	0	0	
6	2.0	86.0	0.2	-1	-1	0	0	
6	2.0	86.0	0.2	-1	-1	0	0	
6	2.0	86.0	0.2	-1	-1	0	0	
6	2.0	86.0	0.2	-1	-1	0	0	
6	2.0	86.0	0.2	-1	-1	0	0	
6	2.0	86.0	0.2	-1	-1	0	0	
6	2.0	86.0	0.2	-1	-1	0	0	
6	2.0	86.0	0.2	-1	-1	0	0	
6	2.0	86.0	0.2	-1	-1	0	0	
6	2.0	86.0	0.2	-1	-1	0	0	
6	2.0	86.0	0.2	-1	-1	0	0	
6	2.0	86.0	0.2	-1	-1	0	0	
6	2.0	86.0	0.2	-1	-1	0	0	
6	2.0	86.0	0.2	-1	-1	0	0	
6	2.0	86.0	0.2	-1	-1	0	0	
6	2.0	86.0	0.2	-1	-1	0	0	
6	2.0	86.0	0.2	-1	-1	0	0	
6	2.0	86.0	0.2	-1	-1	0	0	
6	2.0	86.0	0.2	-1	-1	0	0	
6	2.0	86.0	0.2	-1	-1	0	0	
6	2.0	86.0	0.2	-1	-1	0	0	
6	2.0	86.0	0.2	-1	-1	0	0	
6	2.0	86.0	0.2	-1	-1	0	0	
6	2.0	86.0	0.2	-1	-1	0	0	
6	2.0	86.0	0.2	-1	-1	0	0	
6	2.0	86.0	0.2	-1	-1	0	0	
6	2.0	86.0	0.2	-1	-1	0	0	
6	2.0	86.0	0.2	-1	-1	0	0	
6	2.0	86.0	0.2	-1	-1	0	0	
6	2.0	86.0	0.2	-1	-1	0	0	
6	2.0	86.0	0.2	-1	-1	0	0	
6	2.0	86.0	0.2	-1	-1	0	0	
6	2.0	86.0	0.2	-1	-1	0	0	
6	2.0	86.0	0.2	-1	-1	0	0	
6	2.0	86.0	0.2	-1	-1	0	0	
6	2.0	86.0	0.2	-1	-1	0	0	
6	2.0	86.0	0.2	-1	-1	0	0	
6	2.0	86.0	0.2	-1	-1	0	0	
6	2.0	86.0	0.2	-1	-1	0	0	
6	2.0	86.0	0.2	-1	-1	0	0	
6	2.0	86.0	0.2	-1	-1	0	0	
6	2.0	86.0	0.2	-1	-1	0	0	
6	2.0	86.0	0.2	-1	-1	0	0	
6	2.0	86.0	0.2	-1	-1	0	0	
6	2.0	86.0	0.2	-1	-1	0	0	
6	2.0	86.0	0.2	-1	-1	0	0	
6	2.0	86.0	0.2	-1	-1	0	0	
6	2.0	86.0	0.2	-1	-1	0	0	
6	2.0	86.0	0.2	-1	-1	0	0	
6	2.0	86.0	0.2	-1	-1	0	0	
6	2.0	86.0	0.2	-1	-1	0	0	
6	2.0	86.0	0.2	-1	-1	0	0	
6	2.0	86.0	0.2	-1	-1	0	0	
6	2.0	86.0	0.2	-1	-1	0	0	
6	2.0	86.0	0.2	-1	-1	0	0	
6	2.0	86.0	0.2	-1	-1	0	0	
6	2.0	86.0	0.2	-1	-1	0	0	
6	2.0	86.0	0.2	-1	-1	0	0	
6	2.0	86.0	0.2	-1	-1	0	0	
6	2.0	86.0	0.2	-1	-1	0	0	
6	2.0	86.0	0.2	-1	-1	0	0	
6	2.0	86.0	0.2	-1	-1	0	0	
6	2.0	86.0	0.2	-1	-1	0	0	
6	2.0	86.0	0.2	-1	-1	0	0	
6	2.0	86.0	0.2	-1	-1	0	0	
6	2.0	86.0	0.2	-1	-1	0	0	
6	2.0	86.0	0.2	-1	-1	0	0	
6	2.0	86.0	0.2	-1	-1	0	0	
6	2.0	86.0	0.2	-1	-1	0	0	
6	2.0	86.0	0.2	-1	-1	0	0	
6	2.0	86.0	0.2	-1	-1	0	0	
6	2.0	86.0	0.2	-1	-1	0	0	
6	2.0	86.0	0.2	-1	-1	0	0	
6	2.0	86.0	0.2	-1	-1	0	0	
6	2.0	86.0	0.2	-1	-1	0	0	
6	2.0	86.0	0.2	-1	-1	0	0	
6	2.0	86.0	0.2	-1	-1	0	0	
6	2.0	86.0	0.2	-1	-1	0	0	
6	2.0	86.0	0.2	-1	-1	0	0	
6	2.0	86.0	0.2	-1	-1	0	0	
6	2.0	86.0	0.2	-1	-1	0	0	
6	2.0	86.0	0.2	-1	-1	0	0	
6	2.0	86.0	0.2	-1	-1	0	0	
6	2.0	86.0	0.2	-1	-1	0	0	
6	2.0	86.0	0.2	-1	-1	0	0	
6	2.0	86.0	0.2	-1	-1	0	0	
6	2.0	86.0	0.2	-1	-1	0	0	
6	2.0	86.0	0.2	-1	-1	0	0	
6	2.0	86.0	0.2	-1	-1	0	0	
6	2.0	86.0	0.2	-1	-1	0	0	
6	2.0	86.0	0.2	-1	-1	0	0	
6	2.0	86.0	0.2	-1	-1	0	0	
6	2.0	86.0	0.2	-1	-1	0	0	
6	2.0	86.0	0.2	-1	-1	0	0	
6	2.0	86.0	0.2	-1	-1	0	0	
6	2.0	86.0	0.2	-1	-1	0	0	
6	2.0	86.0	0.2	-1	-1	0	0	
6	2.0	86.0	0.2	-1	-1	0	0	
6	2.0	86.0	0.2	-1	-1	0	0	
6	2.0	86.0	0.2	-1	-1	0	0	
6	2.0	86.0	0.2	-1	-1	0	0	
6	2.0	86.0	0.2	-1	-1	0	0	
6	2.0	86.0	0.2	-1	-1	0	0	
6	2.0	86.0	0.2	-1	-1	0	0	
6	2.0	86.0	0.2	-1	-1	0	0	
6	2.0	86.0	0.2	-1	-1	0	0	
6	2.0	86.0	0.2	-1	-1	0	0	
6	2.0	86.0	0.2	-1	-1	0	0	
6	2.0	86.0	0.2	-1	-1	0	0	
6	2.0	86.0	0.2	-1	-1	0	0	
6	2.0	86.0	0.2	-1	-1	0	0	
6	2.0	86.0	0.2	-1	-1	0	0	
6	2.0	86.0	0.2	-1	-1	0	0	
7	2.0	86.0	0.2	0	-1	-1	0	
8	2.0	74.0	0.9	-1	-1	0	0	
8	2.0	74.0	0.9	-1	-1	0	0	
8	2.0	74.0	0.9	-1	-1	0	0	
8	2.0	74.0	0.9	-1	-1	0	0	
8	2.0	74.0	0.9	-1	-1	0	0	
8	2.0	74.0	0.9	-1	-1	0	0	
8	2.0	74.0	0.9	-1	-1	0	0	
8	2.0	74.0	0.9	-1	-1	0	0	
8	2.0	74.0	0.9	-1	-1	0	0	
8	2.0	74.0	0.9	-1	-1	0	0	
8	2.0	74.0	0.9	-1	-1	0	0	
8	2.0	74.0	0.9	-1	-1	0	0	
8	2.0	74.0	0.9	-1	-1	0	0	
8	2.0	74.0	0.9	-1	-1	0	0	
8	2.0	74.0	0.9	-1	-1	0	0	
8	2.0	74.0	0.9	-1	-1	0	0	
8	2.0	74.0	0.9	-1	-1	0	0	
8	2.0	74.0	0.9	-1	-1	0	0	
8	2.0	74.0	0.9	-1	-1	0	0	
8	2.0	74.0	0.9	-1	-1	0	0	
8	2.0	74.0	0.9	-1	-1	0	0	
8	2.0	74.0	0.9	-1	-1	0	0	
8	2.0	74.0	0.9	-1	-1	0	0	
8	2.0	74.0	0.9	-1	-1	0	0	
8	2.0	74.0	0.9	-1	-1	0	0	
8	2.0	74.0	0.9	-1	-1	0	0	
8	2.0	74.0	0.9	-1	-1	0	0	
8	2.0	74.0	0.9	-1	-1	0	0	
8	2.0	74.0	0.9	-1	-1	0	0	
8	2.0	74.0	0.9	-1	-1	0	0	
8	2.0	74.0	0.9	-1	-1	0	0	
8	2.0	74.0	0.9	-1	-1	0	0	
8	2.0	74.0	0.9	-1	-1	0	0	
8	2.0	74.0	0.9	-1	-1	0	0	
8	2.0	74.0	0.9	-1	-1	0	0	
8	2.0	74.0	0.9	-1	-1	0	0	
8	2.0	74.0	0.9	-1	-1	0	0	
8	2.0	74.0	0.9	-1	-1	0	0	
8	2.0	74.0	0.9	-1	-1	0	0	
8	2.0	74.0	0.9	-1	-1	0	0	
8	2.0	74.0	0.9	-1	-1	0	0	
8	2.0	74.0	0.9	-1	-1	0	0	
8	2.0	74.0	0.9	-1	-1	0	0	
8	2.0	74.0	0.9	-1	-1	0	0	
8	2.0	74.0	0.9	-1	-1	0	0	
8	2.0	74.0	0.9	-1	-1	0	0	
8	2.0	74.0	0.9	-1	-1	0	0	
8	2.0	74.0	0.9	-1	-1	0	0	
8	2.0	74.0	0.9	-1	-1	0	0	
8	2.0	74.0	0.9	-1	-1	0	0	
8	2.0	74.0	0.9	-1	-1	0	0	
8	2.0	74.0	0.9	-1	-1	0	0	
8	2.0	74.0	0.9	-1	-1	0	0	
8	2.0	74.0	0.9	-1	-1	0	0	
8	2.0	74.0	0.9	-1	-1	0	0	
8	2.0	74.0	0.9	-1	-1	0	0	
8	2.0	74.0	0.9	-1	-1	0	0	
8	2.0	74.0	0.9	-1	-1	0	0	
8	2.0	74.0	0.9	-1	-1	0	0	
8	2.0	74.0	0.9	-1	-1	0	0	
8	2.0	74.0	0.9	-1	-1	0	0	
8	2.0	74.0	0.9	-1	-1	0	0	
8	2.0	74.0	0.9	-1	-1	0	0	
8	2.0	74.0	0.9	-1	-1	0	0	
8	2.0	74.0	0.9	-1	-1	0	0	
8	2.0	74.0	0.9	-1	-1	0	0	
8	2.0	74.0	0.9	-1	-1	0	0	
8	2.0	74.0	0.9	-1	-1	0	0	
8	2.0	74.0	0.9	-1	-1	0	0	
8	2.0	74.0	0.9	-1	-1	0	0	
8	2.0	74.0	0.9	-1	-1	0	0	
8	2.0	74.0	0.9	-1	-1	0	0	
8	2.0	74.0	0.9	-1	-1	0	0	
8	2.0	74.0	0.9	-1	-1	0	0	
8	2.0	74.0	0.9	-1	-1	0	0	
8	2.0	74.0	0.9	-1	-1	0	0	
8	2.0	74.0	0.9	-1	-1	0	0	
8	2.0	74.0	0.9	-1	-1	0	0	
8	2.0	74.0	0.9	-1	-1	0	0	
8	2.0	74.0	0.9	-1	-1	0	0	
8	2.0	74.0	0.9	-1	-1	0	0	
8	2.0	74.0	0.9	-1	-1	0	0	
8	2.0	74.0	0.9	-1	-1	0	0	
8	2.0	74.0	0.9	-1	-1	0	0	
8	2.0	74.0	0.9	-1	-1	0	0	
8	2.0	74.0	0.9	-1	-1	0	0	
8	2.0	74.0	0.9	-1	-1	0	0	
8	2.0	74.0	0.9	-1	-1	0	0	
8	2.0	74.0	0.9	-1	-1	0	0	
8	2.0	74.0	0.9	-1	-1	0	0	
8	2.0	74.0	0.9	-1	-1	0	0	
8	2.0	74.0	0.9	-1	-1	0	0	
8	2.0	74.0	0.9	-1	-1	0	0	
8	2.0	74.0	0.9	-1	-1	0	0	
8	2.0	74.0	0.9	-1	-1	0	0	
8	2.0	74.0	0.9	-1	-1	0	0	
8	2.0	74.0	0.9	-1	-1	0	0	
8	2.0	74.0	0.9	-1	-1	0	0	
8	2.0	74.0	0.9	-1	-1	0	0	
8	2.0	74.0	0.9	-1	-1	0	0	
8	2.0	74.0	0.9	-1	-1	0	0	
8	2.0	74.0	0.9	-1	-1	0	0	
8	2.0	74.0	0.9	-1	-1	0	0	
8	2.0	74.0	0.9	-1	-1	0	0	
8	2.0	74.0	0.9	-1	-1	0	0	
8	2.0	74.0	0.9	-1	-1	0	0	
8	2.0	74.0	0.9	-1	-1	0	0	
8	2.0	74.0	0.9	-1	-1	0	0	
8	2.0	74.0	0.9	-1	-1	0	0	
8	2.0	74.0	0.9	-1	-1	0	0	
8	2.0	74.0	0.9	-1	-1	0	0	
8	2.0	74.0	0.9	-1	-1	0	0	
8	2.0	74.0	0.9	-1	-1	0	0	
8	2.0	74.0	0.9	-1	-1	0	0	
8	2.0	74.0	0.9	-1	-1	0	0	
8	2.0	74.0	0.9	-1	-1	0	0	
8	2.0	74.0	0.9	-1	-1	0	0	
8	2.0	74.0	0.9	-1	-1	0	0	
8	2.0	74.0	0.9	-1	-1	0	0	
8	2.0	74.0	0.9	-1	-1	0	0	
8	2.0	74.0	0.9	-1	-1	0	0	
8	2.0	74.0	0.9	-1	-1	0	0	
8	2.0	74.0	0.9	-1	-1	0	0	
8	2.0	74.0	0.9	-1	-1	0	0	
9	2.0	74.0	0.9	0	-1	-1	0	
10	2.0	95.0	1.0	-1	-1	0	0	
